datetime,trial,load,response_time,stimulus,stimulus_position,solution,response,correct,practice
4/09/2024 2:07:01 PM,0,1,666,[7;;],666,666,666,666,3
4/09/2024 2:12:29 PM,1,1,2.500581,5,0,7,no response,False,1
4/09/2024 2:12:30 PM,2,1,3.002658,5,0,5,no response,False,1
4/09/2024 2:12:30 PM,3,1,3.505998,5,0,5,no response,False,1
4/09/2024 2:12:31 PM,4,1,4.010198,5,0,5,no response,False,1
4/09/2024 2:12:31 PM,5,1,4.513434,5,0,5,no response,False,1
4/09/2024 2:12:32 PM,6,1,5.017225,5,0,5,no response,False,1
4/09/2024 2:12:32 PM,7,1,5.520948,5,0,5,no response,False,1
4/09/2024 2:12:33 PM,8,1,6.024845,5,0,5,no response,False,1
4/09/2024 2:12:33 PM,9,1,6.528755,5,0,5,no response,False,1
4/09/2024 2:12:34 PM,10,1,7.032836,5,0,5,no response,False,1
4/09/2024 2:12:34 PM,11,1,7.536694,5,0,5,no response,False,1
4/09/2024 2:12:35 PM,12,1,8.04315,5,0,5,no response,False,1
4/09/2024 2:12:35 PM,13,1,8.547328,5,0,5,no response,False,1
4/09/2024 2:12:36 PM,14,1,9.05113,5,0,5,no response,False,1
4/09/2024 2:12:36 PM,15,1,9.554793,5,0,5,no response,False,1
4/09/2024 2:12:37 PM,16,1,10.05853,5,0,5,no response,False,1
4/09/2024 2:12:37 PM,17,1,10.5626,5,0,5,no response,False,1
4/09/2024 2:12:38 PM,18,1,11.067,5,0,5,no response,False,1
4/09/2024 2:12:38 PM,19,1,11.57174,5,0,5,no response,False,1
4/09/2024 2:12:39 PM,20,1,12.07601,5,0,5,no response,False,1
4/09/2024 2:12:39 PM,21,1,12.57971,5,0,5,no response,False,1
4/09/2024 2:12:40 PM,22,1,13.08764,5,0,5,no response,False,1
4/09/2024 2:12:40 PM,23,1,13.5961,5,0,5,no response,False,1
4/09/2024 2:12:41 PM,24,1,14.10015,5,0,5,no response,False,1
4/09/2024 2:12:41 PM,25,1,14.6038,5,0,5,no response,False,1
4/09/2024 2:12:42 PM,26,1,15.10783,5,0,5,no response,False,1
datetime,trial,load,response_time,stimulus,stimulus_position,solution,response,correct,practice
4/09/2024 2:25:00 PM,0,1,666,[9;;],666,666,666,666,3
datetime,trial,load,response_time,stimulus,stimulus_position,solution,response,correct,practice
4/09/2024 2:27:14 PM,0,1,666,[4;;],666,666,666,666,3
datetime,trial,load,response_time,stimulus,stimulus_position,solution,response,correct,practice
datetime,trial,load,response_time,stimulus,stimulus_position,solution,response,correct,practice
4/09/2024 2:32:33 PM,0,1,666,[5;;],666,666,666,666,3
datetime,trial,load,response_time,stimulus,stimulus_position,solution,response,correct,practice
4/09/2024 3:37:43 PM,0,1,666,[6;;],666,666,666,666,3
4/09/2024 3:37:45 PM,1,1,1.058053,4,0,6,6,True,1
4/09/2024 3:37:49 PM,1,2,666,[5;6;],666,666,666,666,3
4/09/2024 3:37:51 PM,2,2,0.5590312,4,0,5,5,True,1
4/09/2024 3:37:55 PM,2,3,666,[6;7;8],666,666,666,666,3
4/09/2024 3:37:59 PM,3,3,2.454202,3,0,6,6,True,1
4/09/2024 3:38:08 PM,0,1,666,[7;;],666,666,666,666,3
4/09/2024 3:38:11 PM,1,1,0.9937775,6,0,7,7,True,0
4/09/2024 3:38:14 PM,1,2,666,[9;1;],666,666,666,666,3
4/09/2024 3:38:17 PM,2,2,0.8306051,2,0,9,9,True,0
4/09/2024 3:38:21 PM,2,3,666,[9;5;4],666,666,666,666,3
4/09/2024 3:38:23 PM,3,3,0.9244568,8,0,9,9,True,0
datetime,trial,load,response_time,stimulus,stimulus_position,solution,response,correct,practice
datetime,trial,load,response_time,stimulus,stimulus_position,solution,response,correct,practice
4/09/2024 6:16:54 PM,0,1,666,[4;;],666,666,666,666,3
4/09/2024 6:16:57 PM,1,1,1.764756,3,0,4,4,True,1
4/09/2024 6:17:01 PM,1,2,666,[9;7;],666,666,666,666,3
4/09/2024 6:17:03 PM,2,2,0.1675436,4,0,9,9,True,1
4/09/2024 6:17:07 PM,2,3,666,[2;6;7],666,666,666,666,3
4/09/2024 6:17:10 PM,3,3,1.529428,5,1,6,6,True,1
datetime,trial,load,response_time,stimulus,stimulus_position,solution,response,correct,practice
4/09/2024 6:19:47 PM,0,1,666,[2;;],666,666,666,666,3
4/09/2024 6:19:49 PM,1,1,0.4322547,7,0,2,2,True,1
4/09/2024 6:19:52 PM,1,2,666,[2;5;],666,666,666,666,3
4/09/2024 6:19:54 PM,2,2,0.4763668,3,0,2,2,True,1
4/09/2024 6:19:58 PM,2,3,666,[7;5;9],666,666,666,666,3
4/09/2024 6:20:00 PM,3,3,0.5920233,8,1,5,5,True,1
datetime,trial,load,response_time,stimulus,stimulus_position,solution,response,correct,practice
4/09/2024 6:20:40 PM,0,1,666,[1;;],666,666,666,666,3
4/09/2024 6:20:44 PM,1,1,2.500038,5,0,1,no response,False,1
4/09/2024 6:20:48 PM,1,2,666,[9;1;],666,666,666,666,3
4/09/2024 6:20:52 PM,2,2,2.900506,3,0,9,no response,False,1
4/09/2024 6:20:56 PM,2,3,666,[1;4;7],666,666,666,666,3
4/09/2024 6:20:59 PM,3,3,1.581537,2,1,4,2,False,1
datetime,trial,load,response_time,stimulus,stimulus_position,solution,response,correct,practice
4/09/2024 6:29:08 PM,0,1,666,[1;;],666,666,666,666,3
4/09/2024 6:29:11 PM,1,1,1.930506,3,0,1,3,False,1
4/09/2024 6:29:15 PM,1,2,666,[9;8;],666,666,666,666,3
4/09/2024 6:29:16 PM,2,2,0.1466837,3,0,9,1,False,1
4/09/2024 6:29:21 PM,2,3,666,[4;2;9],666,666,666,666,3
4/09/2024 6:29:22 PM,3,3,0.6192902,8,0,4,1,False,1
4/09/2024 6:29:30 PM,0,1,666,[9;;],666,666,666,666,3
4/09/2024 6:29:34 PM,1,1,2.500111,5,0,9,no response,False,0
4/09/2024 6:29:38 PM,1,2,666,[4;2;],666,666,666,666,3
4/09/2024 6:29:42 PM,2,2,2.9003,1,0,4,no response,False,0
4/09/2024 6:29:46 PM,2,3,666,[7;5;3],666,666,666,666,3
4/09/2024 6:29:51 PM,3,3,3.501122,2,0,7,no response,False,0
